study,sum,test,trials.thisRepN,trials.thisTrialN,trials.thisN,trials.thisIndex,trials_2.thisRepN,trials_2.thisTrialN,trials_2.thisN,trials_2.thisIndex,trials_3.thisRepN,trials_3.thisTrialN,trials_3.thisN,trials_3.thisIndex,text.started,text.stopped,polygon.started,image.started,polygon.stopped,image.stopped,text_2.started,textbox.started,text_2.stopped,textbox.text,polygon_2.started,image_2.started,polygon_2.stopped,image_2.stopped,key_resp.started,key_resp.keys,key_resp.rt,key_resp.duration,participant,session,date,expName,psychopyVersion,frameRate,
C:\Program Files\PsychoPy\soloproject\4.png,,,0,0,0,3,,,,,,,,,12.178662400008761,15.18635690001247,15.18635690001247,15.68374940000649,15.694874400011031,,,,,,,,,,,,,,4,001,2023-11-29_19h10.59.589,labsolo,2023.1.3,59.98767853303048,
C:\Program Files\PsychoPy\soloproject\3.png,,,0,1,1,2,,,,,,,,,,,20.696266800005105,21.1799655000068,21.196466300010798,26.190472000002046,,,,,,,,,,,,,4,001,2023-11-29_19h10.59.589,labsolo,2023.1.3,59.98767853303048,
C:\Program Files\PsychoPy\soloproject\2.png,,,0,2,2,1,,,,,,,,,,,26.190472000002046,26.681418799998937,26.69802390001132,31.690589200006798,,,,,,,,,,,,,4,001,2023-11-29_19h10.59.589,labsolo,2023.1.3,59.98767853303048,
C:\Program Files\PsychoPy\soloproject\6.png,,,0,3,3,5,,,,,,,,,,,31.690589200006798,32.18301330000395,32.19926960000885,37.19540640000196,,,,,,,,,,,,,4,001,2023-11-29_19h10.59.589,labsolo,2023.1.3,59.98767853303048,
C:\Program Files\PsychoPy\soloproject\7.png,,,0,4,4,6,,,,,,,,,,,37.19540640000196,37.68463740000152,37.70073219999904,42.69484110000485,,,,,,,,,,,,,4,001,2023-11-29_19h10.59.589,labsolo,2023.1.3,59.98767853303048,
C:\Program Files\PsychoPy\soloproject\1.png,,,0,5,5,0,,,,,,,,,,,42.69484110000485,43.185903600009624,43.20228599999973,48.19696169999952,,,,,,,,,,,,,4,001,2023-11-29_19h10.59.589,labsolo,2023.1.3,59.98767853303048,
C:\Program Files\PsychoPy\soloproject\5.png,,,0,6,6,4,,,,,,,,,,,48.19696169999952,48.68733330001123,48.70369180000853,53.6966465000005,,,,,,,,,,,,,4,001,2023-11-29_19h10.59.589,labsolo,2023.1.3,59.98767853303048,
C:\Program Files\PsychoPy\soloproject\9.png,,,0,7,7,8,,,,,,,,,,,53.6966465000005,54.188880400004564,54.20501360000344,59.196443900000304,,,,,,,,,,,,,4,001,2023-11-29_19h10.59.589,labsolo,2023.1.3,59.98767853303048,
C:\Program Files\PsychoPy\soloproject\8.png,,,0,8,8,7,,,,,,,,,,,59.196443900000304,59.69014099999913,59.70664420000685,,,,,,,,,,,,,,4,001,2023-11-29_19h10.59.589,labsolo,2023.1.3,59.98767853303048,
,522+16,,,,,,0,0,0,4,,,,,,,,,,,64.7052049000049,64.7052049000049,74.71016840000811,"538
",,,,,,,,,4,001,2023-11-29_19h10.59.589,labsolo,2023.1.3,59.98767853303048,
,637+94,,,,,,0,1,1,1,,,,,,,,,,,79.69619950000197,79.69619950000197,89.69767320000392,731,,,,,,,,,4,001,2023-11-29_19h10.59.589,labsolo,2023.1.3,59.98767853303048,
,125-19,,,,,,0,2,2,0,,,,,,,,,,,94.69878280001285,94.69878280001285,104.70154930000717,106,,,,,,,,,4,001,2023-11-29_19h10.59.589,labsolo,2023.1.3,59.98767853303048,
,273-87,,,,,,0,3,3,5,,,,,,,,,,,109.70430630000192,109.70430630000192,119.70567550000851,186,,,,,,,,,4,001,2023-11-29_19h10.59.589,labsolo,2023.1.3,59.98767853303048,
,113-49,,,,,,0,4,4,2,,,,,,,,,,,124.70800830000371,124.70800830000371,134.7094528000016,64,,,,,,,,,4,001,2023-11-29_19h10.59.589,labsolo,2023.1.3,59.98767853303048,
,586+76,,,,,,0,5,5,3,,,,,,,,,,,139.69428619999962,139.69428619999962,149.69667380000465,662,,,,,,,,,4,001,2023-11-29_19h10.59.589,labsolo,2023.1.3,59.98767853303048,
,,C:\Program Files\PsychoPy\soloproject\12.png,,,,,,,,,0,0,0,2,,,,,,,,,,,154.70282180000504,155.18264940001245,155.21523990000424,158.18240220000735,158.18240220000735,y,0.8917539999820292,None,4,001,2023-11-29_19h10.59.589,labsolo,2023.1.3,59.98767853303048,
,,C:\Program Files\PsychoPy\soloproject\17.png,,,,,,,,,0,1,1,7,,,,,,,,,,,159.11269880000327,159.5999276000075,159.6164878000127,162.6001607000071,162.6001607000071,y,0.3379652999865357,None,4,001,2023-11-29_19h10.59.589,labsolo,2023.1.3,59.98767853303048,
,,C:\Program Files\PsychoPy\soloproject\20.png,,,,,,,,,0,2,2,10,,,,,,,,,,,162.97951860001194,163.467799200007,163.48414179999963,166.4679904000077,166.45171330000449,n,0.3962425999925472,None,4,001,2023-11-29_19h10.59.589,labsolo,2023.1.3,59.98767853303048,
,,C:\Program Files\PsychoPy\soloproject\23.png,,,,,,,,,0,3,3,13,,,,,,,,,,,166.88823370001046,167.36882380000316,167.40174460000708,170.36899970000377,170.35252780000155,n,0.3108444999961648,None,4,001,2023-11-29_19h10.59.589,labsolo,2023.1.3,59.98767853303048,
,,C:\Program Files\PsychoPy\soloproject\27.png,,,,,,,,,0,4,4,17,,,,,,,,,,,170.69863500000793,171.18666190000658,171.20285310001054,174.18654320000496,174.17038650000177,y,0.2574029999959748,None,4,001,2023-11-29_19h10.59.589,labsolo,2023.1.3,59.98767853303048,
,,C:\Program Files\PsychoPy\soloproject\10.png,,,,,,,,,0,5,5,0,,,,,,,,,,,174.4642460000032,174.95419650000986,174.9706154000014,177.9543265000102,177.93793350001215,y,0.4562125999800628,None,4,001,2023-11-29_19h10.59.589,labsolo,2023.1.3,59.98767853303048,
,,C:\Program Files\PsychoPy\soloproject\24.png,,,,,,,,,0,6,6,14,,,,,,,,,,,178.42918620001,178.92196910000348,178.93817080000008,181.92192390000855,181.90552000000025,y,0.28344709998054896,None,4,001,2023-11-29_19h10.59.589,labsolo,2023.1.3,59.98767853303048,
,,C:\Program Files\PsychoPy\soloproject\13.png,,,,,,,,,0,7,7,3,,,,,,,,,,,182.21843400000944,182.70618580000883,182.7225102000084,185.70628600000055,185.69011390001106,n,0.27289599999494385,None,4,001,2023-11-29_19h10.59.589,labsolo,2023.1.3,59.98767853303048,
,,C:\Program Files\PsychoPy\soloproject\21.png,,,,,,,,,0,8,8,11,,,,,,,,,,,185.99058440000226,186.47390850000374,186.49028969999927,189.47405730000173,189.47405730000173,n,0.26337279997824226,None,4,001,2023-11-29_19h10.59.589,labsolo,2023.1.3,59.98767853303048,
,,C:\Program Files\PsychoPy\soloproject\19.png,,,,,,,,,0,9,9,9,,,,,,,,,,,189.76953530000173,190.2579790000018,190.2747778000048,193.25834730001225,193.24205820000498,n,0.2497688999865204,None,4,001,2023-11-29_19h10.59.589,labsolo,2023.1.3,59.98767853303048,
,,C:\Program Files\PsychoPy\soloproject\14.png,,,,,,,,,0,10,10,4,,,,,,,,,,,193.52185020000616,194.00911780000024,194.02565999999933,197.00930700000026,196.99299050000263,n,0.2490360999800032,None,4,001,2023-11-29_19h10.59.589,labsolo,2023.1.3,59.98767853303048,
,,C:\Program Files\PsychoPy\soloproject\25.png,,,,,,,,,0,11,11,15,,,,,,,,,,,197.2694646000018,197.7599976000056,197.77663150000444,200.76022450000164,200.74405470000056,n,0.43846779999148566,None,4,001,2023-11-29_19h10.59.589,labsolo,2023.1.3,59.98767853303048,
,,C:\Program Files\PsychoPy\soloproject\16.png,,,,,,,,,0,12,12,6,,,,,,,,,,,201.21990240000014,201.7110696000018,201.7274894000002,204.7113468000025,204.69500920000428,y,0.24663299998792354,None,4,001,2023-11-29_19h10.59.589,labsolo,2023.1.3,59.98767853303048,
,,C:\Program Files\PsychoPy\soloproject\26.png,,,,,,,,,0,13,13,16,,,,,,,,,,,204.97175830000197,205.46206869999878,205.47870650001278,208.46198310000182,208.44596740000998,n,0.3801284999935888,None,4,001,2023-11-29_19h10.59.589,labsolo,2023.1.3,59.98767853303048,
,,C:\Program Files\PsychoPy\soloproject\22.png,,,,,,,,,0,14,14,12,,,,,,,,,,,208.86019780000788,209.34667280000576,209.36279170001217,212.34669940000458,212.34669940000458,n,0.26996069998131134,None,4,001,2023-11-29_19h10.59.589,labsolo,2023.1.3,59.98767853303048,
,,C:\Program Files\PsychoPy\soloproject\11.png,,,,,,,,,0,15,15,1,,,,,,,,,,,212.6503464999987,213.14774660000694,213.16384000000835,216.14784810000856,216.1315825000056,y,0.27141249999112915,None,4,001,2023-11-29_19h10.59.589,labsolo,2023.1.3,59.98767853303048,
,,C:\Program Files\PsychoPy\soloproject\15.png,,,,,,,,,0,16,16,5,,,,,,,,,,,216.43168249999871,216.9152283000003,216.9317228,219.9153401000076,219.9153401000076,y,0.48298699999577366,None,4,001,2023-11-29_19h10.59.589,labsolo,2023.1.3,59.98767853303048,
,,C:\Program Files\PsychoPy\soloproject\18.png,,,,,,,,,0,17,17,8,,,,,,,,,,,220.42068080000172,220.91626960001304,220.9328616999992,223.91648310000892,223.90010210000037,y,0.24649749998934567,None,4,001,2023-11-29_19h10.59.589,labsolo,2023.1.3,59.98767853303048,
