study,sum,test,trials.thisRepN,trials.thisTrialN,trials.thisN,trials.thisIndex,trials_2.thisRepN,trials_2.thisTrialN,trials_2.thisN,trials_2.thisIndex,trials_3.thisRepN,trials_3.thisTrialN,trials_3.thisN,trials_3.thisIndex,text.started,text.stopped,polygon.started,image.started,polygon.stopped,image.stopped,text_2.started,textbox.started,text_2.stopped,textbox.text,polygon_2.started,image_2.started,polygon_2.stopped,image_2.stopped,key_resp.started,key_resp.keys,key_resp.rt,key_resp.duration,participant,session,date,expName,psychopyVersion,frameRate
C:\Program Files\PsychoPy\soloproject\2.png,,,0,0,0,1,,,,,,,,,18.8520349,21.8676827,21.8676827,22.3644345,22.3737203,,,,,,,,,,,,,,HI,1,2023-11-28_23h35.50.219,labsolo,2023.1.3,59.94402427
C:\Program Files\PsychoPy\soloproject\3.png,,,0,1,1,2,,,,,,,,,,,27.375366,27.8588252,27.875257,32.8678413,,,,,,,,,,,,,HI,1,2023-11-28_23h35.50.219,labsolo,2023.1.3,59.94402427
C:\Program Files\PsychoPy\soloproject\8.png,,,0,2,2,7,,,,,,,,,,,32.8678413,33.36059,33.3764959,38.370692,,,,,,,,,,,,,HI,1,2023-11-28_23h35.50.219,labsolo,2023.1.3,59.94402427
C:\Program Files\PsychoPy\soloproject\5.png,,,0,3,3,4,,,,,,,,,,,38.370692,38.8618369,38.8780842,43.8692931,,,,,,,,,,,,,HI,1,2023-11-28_23h35.50.219,labsolo,2023.1.3,59.94402427
C:\Program Files\PsychoPy\soloproject\1.png,,,0,4,4,0,,,,,,,,,,,43.8692931,44.3633754,44.3793762,,,,,,,,,,,,,,HI,1,2023-11-28_23h35.50.219,labsolo,2023.1.3,59.94402427
C:\Program Files\PsychoPy\soloproject\7.png,,,0,5,5,6,,,,,,,,,,,49.3645572,49.8479921,49.8645854,54.8574207,,,,,,,,,,,,,HI,1,2023-11-28_23h35.50.219,labsolo,2023.1.3,59.94402427
C:\Program Files\PsychoPy\soloproject\9.png,,,0,6,6,8,,,,,,,,,,,54.8574207,55.3496946,55.3659038,60.3585757,,,,,,,,,,,,,HI,1,2023-11-28_23h35.50.219,labsolo,2023.1.3,59.94402427
C:\Program Files\PsychoPy\soloproject\6.png,,,0,7,7,5,,,,,,,,,,,60.3585757,60.850881,60.8674406,65.8561188,,,,,,,,,,,,,HI,1,2023-11-28_23h35.50.219,labsolo,2023.1.3,59.94402427
C:\Program Files\PsychoPy\soloproject\4.png,,,0,8,8,3,,,,,,,,,,,65.8561188,66.3524152,66.3689876,71.3671241,,,,,,,,,,,,,HI,1,2023-11-28_23h35.50.219,labsolo,2023.1.3,59.94402427
,273-87,,,,,,0,0,0,5,,,,,,,,,,,71.3671241,71.3671241,81.3722135,186,,,,,,,,,HI,1,2023-11-28_23h35.50.219,labsolo,2023.1.3,59.94402427
,113-49,,,,,,0,1,1,2,,,,,,,,,,,86.3738702,86.3738702,96.3762969,64,,,,,,,,,HI,1,2023-11-28_23h35.50.219,labsolo,2023.1.3,59.94402427
,522+16,,,,,,0,2,2,4,,,,,,,,,,,101.3855932,101.3855932,111.3968983,538,,,,,,,,,HI,1,2023-11-28_23h35.50.219,labsolo,2023.1.3,59.94402427
,637+94,,,,,,0,3,3,1,,,,,,,,,,,116.3649989,116.3649989,126.3675937,731,,,,,,,,,HI,1,2023-11-28_23h35.50.219,labsolo,2023.1.3,59.94402427
,125-19,,,,,,0,4,4,0,,,,,,,,,,,131.3708029,131.3708029,141.3820835,106,,,,,,,,,HI,1,2023-11-28_23h35.50.219,labsolo,2023.1.3,59.94402427
,586+76,,,,,,0,5,5,3,,,,,,,,,,,146.3730037,146.3730037,156.3756334,662,,,,,,,,,HI,1,2023-11-28_23h35.50.219,labsolo,2023.1.3,59.94402427
,,C:\Program Files\PsychoPy\soloproject\10.png,,,,,,,,,0,0,0,0,,,,,,,,,,,161.3898711,161.8612896,161.8941818,164.8612603,164.8612603,y,1.1970043,None,HI,1,2023-11-28_23h35.50.219,labsolo,2023.1.3,59.94402427
,,C:\Program Files\PsychoPy\soloproject\16.png,,,,,,,,,0,1,1,6,,,,,,,,,,,166.0944127,166.5790631,166.5955649,169.5792562,169.5627633,y,0.998738,None,HI,1,2023-11-28_23h35.50.219,labsolo,2023.1.3,59.94402427
,,C:\Program Files\PsychoPy\soloproject\25.png,,,,,,,,,0,2,2,15,,,,,,,,,,,170.5899042,171.0802511,171.0966789,174.0802778,174.0638939,n,0.3327663,None,HI,1,2023-11-28_23h35.50.219,labsolo,2023.1.3,59.94402427
,,C:\Program Files\PsychoPy\soloproject\24.png,,,,,,,,,0,3,3,14,,,,,,,,,,,174.4391929,174.914484,174.9477238,177.9146304,177.8984797,y,0.6541357,None,HI,1,2023-11-28_23h35.50.219,labsolo,2023.1.3,59.94402427
,,C:\Program Files\PsychoPy\soloproject\17.png,,,,,,,,,0,4,4,7,,,,,,,,,,,178.5938224,179.0824099,179.0987321,182.0824447,182.0662213,y,1.0847957,None,HI,1,2023-11-28_23h35.50.219,labsolo,2023.1.3,59.94402427
,,C:\Program Files\PsychoPy\soloproject\26.png,,,,,,,,,0,5,5,16,,,,,,,,,,,183.1921573,183.6837197,183.6999625,186.6837974,186.667204,n,0.9224979,None,HI,1,2023-11-28_23h35.50.219,labsolo,2023.1.3,59.94402427
,,C:\Program Files\PsychoPy\soloproject\11.png,,,,,,,,,0,6,6,1,,,,,,,,,,,187.6300673,188.1181829,188.1345567,191.1181745,191.1020977,y,0.845387,None,HI,1,2023-11-28_23h35.50.219,labsolo,2023.1.3,59.94402427
,,C:\Program Files\PsychoPy\soloproject\22.png,,,,,,,,,0,7,7,12,,,,,,,,,,,191.9811906,192.4690709,192.485789,195.4693423,195.4532712,n,0.0127461,None,HI,1,2023-11-28_23h35.50.219,labsolo,2023.1.3,59.94402427
,,C:\Program Files\PsychoPy\soloproject\18.png,,,,,,,,,0,8,8,8,,,,,,,,,,,195.4993324,195.986882,196.0033077,198.9869553,198.9706135,n,0.8486779,None,HI,1,2023-11-28_23h35.50.219,labsolo,2023.1.3,59.94402427
,,C:\Program Files\PsychoPy\soloproject\23.png,,,,,,,,,0,9,9,13,,,,,,,,,,,199.8478877,200.3379925,200.3544489,203.338082,203.321693,n,0.6224619,None,HI,1,2023-11-28_23h35.50.219,labsolo,2023.1.3,59.94402427
,,C:\Program Files\PsychoPy\soloproject\12.png,,,,,,,,,0,10,10,2,,,,,,,,,,,203.9846979,204.47258,204.4888188,207.4725344,207.4563658,y,0.5386302,None,HI,1,2023-11-28_23h35.50.219,labsolo,2023.1.3,59.94402427
,,C:\Program Files\PsychoPy\soloproject\19.png,,,,,,,,,0,11,11,9,,,,,,,,,,,208.0358429,208.523327,208.5399221,211.5235665,211.5074122,n,1.1427334,None,HI,1,2023-11-28_23h35.50.219,labsolo,2023.1.3,59.94402427
,,C:\Program Files\PsychoPy\soloproject\14.png,,,,,,,,,0,12,12,4,,,,,,,,,,,212.6873535,213.174691,213.190982,216.17478,216.1587099,n,2.7091658,None,HI,1,2023-11-28_23h35.50.219,labsolo,2023.1.3,59.94402427
,,C:\Program Files\PsychoPy\soloproject\21.png,,,,,,,,,0,13,13,11,,,,,,,,,,,218.9058404,219.3931991,219.4093484,222.3931454,222.3768054,n,0.9990894,None,HI,1,2023-11-28_23h35.50.219,labsolo,2023.1.3,59.94402427
,,C:\Program Files\PsychoPy\soloproject\15.png,,,,,,,,,0,14,14,5,,,,,,,,,,,223.4055074,223.8943237,223.9106692,226.8943509,226.8779961,n,1.1464841,None,HI,1,2023-11-28_23h35.50.219,labsolo,2023.1.3,59.94402427
,,C:\Program Files\PsychoPy\soloproject\20.png,,,,,,,,,0,15,15,10,,,,,,,,,,,228.0579059,228.5457873,228.5617227,231.545685,231.5291387,n,1.2997157,None,HI,1,2023-11-28_23h35.50.219,labsolo,2023.1.3,59.94402427
,,C:\Program Files\PsychoPy\soloproject\27.png,,,,,,,,,0,16,16,17,,,,,,,,,,,232.8592529,233.3468694,233.3631822,236.3468467,236.3304123,y,1.2682879,None,HI,1,2023-11-28_23h35.50.219,labsolo,2023.1.3,59.94402427
,,C:\Program Files\PsychoPy\soloproject\13.png,,,,,,,,,0,17,17,3,,,,,,,,,,,237.6386334,238.1314313,238.1477754,241.1314434,241.1152117,y,1.8215852,None,HI,1,2023-11-28_23h35.50.219,labsolo,2023.1.3,59.94402427
